Folder: tdep-tutorials/07_Raman/example_GaN/.assets

Note: README.md
# TDEP tutorials
Tutorials for the Temperature Dependent Effective Potentials code and method.

## Contents

- Preparations, file parsing, potentials energy surfaces for testing: [here](00_preparation/README.md)
- Basic handling of the TDEP binaries: [here](00_basics/README.md)
- Self-consistent sampling with sTDEP: [here](01_sampling/README.md)
- Phonon thermodynamics: [here](02_thermodynamics/README.md)

File: outfile.mode_activity.csv
# Raman activity for   3 active q-points
# iq: q-point index on path
# imode: mode index
# frequency: mode frequency in THz
# active_raman: Raman active yes/no (1/0)
# active_ir: IR active yes/no (1/0)
iq,imode,frequency,active_raman,active_ir
    1,    1, 0.00000000E+00,    1,    1
    1,    2, 0.00000000E+00,    1,    1
    1,    3, 0.00000000E+00,    1,    1
    1,    4, 4.03604,    1,    0
    1,    5, 4.03604,    1,    0
    1,    6, 9.68478,    0,    0
    1,    7, 15.7255,    1,    1
    1,    8, 16.5183,    1,    1
    1,    9, 16.847,    1,    0
    1,   10, 16.847,    1,    0
    1,   11, 20.2222,    0,    0
    1,   12, 21.5818,    1,    1
  300,    1, 0.00000000E+00,    1,    1
  300,    2, 0.00000000E+00,    1,    1
  300,    3, 0.00000000E+00,    1,    1
  300,    4, 4.03604,    1,    0
  300,    5, 4.03604,    1,    0
  300,    6, 9.68478,    0,    0
  300,    7, 15.7255,    1,    1
  300,    8, 16.5183,    1,    1
  300,    9, 16.847,    1,    0
  300,   10, 16.847,    1,    0
  300,   11, 20.2222,    0,    0
  300,   12, 21.5818,    1,    1
  301,    1, 0.00000000E+00,    1,    1
  301,    2, 0.00000000E+00,    1,    1
  301,    3, 0.00000000E+00,    1,    1
  301,    4, 4.03604,    1,    0
  301,    5, 4.03604,    1,    0
  301,    6, 9.68478,    0,    0
  301,    7, 16.5183,    1,    1
  301,    8, 16.5183,    1,    1
  301,    9, 16.847,    1,    0
  301,   10, 16.847,    1,    0
  301,   11, 20.2222,    0,    0
  301,   12, 21.3405,    1,    1